{
    "resourceType": "Parameters",
    "parameter": [
      {
        "name": "exact",
        "valueBoolean": true
      },
      {
        "name": "MemberPatient",
        "resource": {
          "resourceType": "Patient",
          "id": "1",
          "identifier": [
            {
                "type": {
                    "coding": [
                        {
                            "system": "http://terminology.hl7.org/CodeSystem/v2-0203",
                            "code": "MB"
                        }
                    ]
                },
                "system": "http://oldhealthplan.example.com",
                "value": "9876",
                "assigner":  {
                    "reference": "Organization/2",
                    "_reference": {
                        "fhir_comments": [
                          "This is the member ID for the old health plan provided by the member."
                        ]
                    }
                }
            }
          ],
          "name": [
            {
              "use": "official",
              "family": "Person",
              "given": [
                "Patricia",
                "Ann"
              ]
            }
          ],
          "gender": "female",
          "birthDate": "1974-12-25"
        }
      },
      {
        "name": "OldCoverage",
        "resource": {
          "resourceType": "Coverage",
          "id": "9876B1",
          "text": {
            "status": "generated",
            "div": "<div xmlns=\"http://www.w3.org/1999/xhtml\">A human-readable rendering of the coverage</div>"
          },
          "contained": [
            {
              "resourceType" : "Organization",
              "id" : "Organization/2",
              "name" : "Old Health Plan",
              "endpoint" : [
                {
                  "reference" : "http://www.oldhealthplan.com"
                }
             ]
            }
            ],
          "identifier": [
            {
              "system": "http://oldhealthplan.example.com",
              "value": "12345"
            }
          ],
          "status": "draft",
          "beneficiary": {
            "reference": "Patient/1"
          },
          "period": {
            "start": "2018-05-23",
            "end": "2019-05-22"
          },
          "payor": [
            {
              "reference": "#Organization/2"
            }
          ],
          "class": [
            {
              "type": {
                "coding": [
                  {
                    "system": "http://terminology.hl7.org/CodeSystem/coverage-class",
                    "code": "group"
                  }
                ]
              },
              "value": "CB135"
            },
            {
              "type": {
                "coding": [
                  {
                    "system": "http://terminology.hl7.org/CodeSystem/coverage-class",
                    "code": "plan"
                  }
                ]
              },
              "value": "B37FC"
            },
            {
              "type": {
                "coding": [
                  {
                    "system": "http://terminology.hl7.org/CodeSystem/coverage-class",
                    "code": "subplan"
                  }
                ]
              },
              "value": "P7"
            },
            {
              "type": {
                "coding": [
                  {
                    "system": "http://terminology.hl7.org/CodeSystem/coverage-class",
                    "code": "class"
                  }
                ]
              },
              "value": "SILVER"
            }
          ]
        }
      },
      {
        "name": "NewCoverage",
        "resource": {
          "resourceType": "Coverage",
          "id": "AA87654",
          "contained": [
              {
                "resourceType" : "Organization",
                "id" : "Organization/3",
                "name" : "New Health Plan",
                "endpoint" : [
                  {
                    "reference" : "http://www.newhealthplan.com"
                  }
                ]
              }
            ],
            "identifier": [
            {
              "system": "http://newealthplan.example.com",
              "value": "234567"
            }
          ],
          "status": "active",
          "beneficiary": {
            "reference": "Patient/1"
          },
          "period": {
            "start": "2020-04-01",
            "end": "2021-03-31"
          },
          "payor": [
            {
              "reference": "#Organization/3"
            }
          ],
          "class": [
            {
              "type": {
                "coding": [
                  {
                    "system": "http://terminology.hl7.org/CodeSystem/coverage-class",
                    "code": "group"
                  }
                ]
              },
              "value": "A55521",
              "name": "New Health Plan Group"
            },
            {
              "type": {
                "coding": [
                  {
                    "system": "http://terminology.hl7.org/CodeSystem/coverage-class",
                    "code": "subgroup"
                  }
                ]
              },
              "value": "456"
            },
            {
              "type": {
                "coding": [
                  {
                    "system": "http://terminology.hl7.org/CodeSystem/coverage-class",
                    "code": "plan"
                  }
                ]
              },
              "value": "99012"
            },
            {
              "type": {
                "coding": [
                  {
                    "system": "http://terminology.hl7.org/CodeSystem/coverage-class",
                    "code": "subplan"
                  }
                ]
              },
              "value": "A4"
            },
            {
              "type": {
                "coding": [
                  {
                    "system": "http://terminology.hl7.org/CodeSystem/coverage-class",
                    "code": "class"
                  }
                ]
              },
              "value": "GOLD"
            }
          ]
        }
      }
    ]
  }